#R dependence of bare Coulomb
#1:R [AA], 2:Re[V(R)] [eV], 3:Im[V(R)] [eV]
    19.96628     1.05861    -0.00000
    19.96628     1.05853    -0.00000
    19.96628     1.05861    -0.00000
    18.02298     1.09249     0.00000
    18.02298     1.09099     0.00000
    18.02298     1.09110     0.00000
    16.74913     1.16209     0.00000
    16.74913     1.15742     0.00000
    16.74913     1.15757     0.00000
    16.30240     1.19790     0.00000
    16.30240     1.19140     0.00000
    16.30240     1.19158     0.00000
    16.74913     1.16209     0.00000
    16.74913     1.15742    -0.00000
    16.74913     1.15757     0.00000
    18.02298     1.09249    -0.00000
    18.02298     1.09099    -0.00000
    18.02298     1.09110     0.00000
    19.96628     1.05861    -0.00000
    19.96628     1.05853    -0.00000
    19.96628     1.05861     0.00000
    18.02298     1.09110     0.00000
    18.02298     1.09099     0.00000
    18.02298     1.09249     0.00000
    15.84309     1.13283     0.00000
    15.84309     1.13090     0.00000
    15.84309     1.13283     0.00000
    14.37737     1.22010    -0.00000
    14.37737     1.21375    -0.00000
    14.37737     1.21670     0.00000
    13.85438     1.26586     0.00000
    13.85438     1.25680     0.00000
    13.85438     1.26032     0.00000
    14.37737     1.22010     0.00000
    14.37737     1.21375     0.00000
    14.37737     1.21670     0.00000
    15.84309     1.13283    -0.00000
    15.84309     1.13090    -0.00000
    15.84309     1.13283     0.00000
    18.02298     1.09110    -0.00000
    18.02298     1.09099    -0.00000
    18.02298     1.09249    -0.00000
    16.74913     1.15757     0.00000
    16.74913     1.15742     0.00000
    16.74913     1.16209     0.00000
    14.37737     1.21670    -0.00000
    14.37737     1.21375    -0.00000
    14.37737     1.22010    -0.00000
    12.74417     1.34416    -0.00000
    12.74417     1.33380    -0.00000
    12.74417     1.34416     0.00000
    12.15109     1.41324    -0.00000
    12.15109     1.39788    -0.00000
    12.15109     1.41062    -0.00000
    12.74417     1.34416    -0.00000
    12.74417     1.33380    -0.00000
    12.74417     1.34416    -0.00000
    14.37737     1.21670    -0.00000
    14.37737     1.21375    -0.00000
    14.37737     1.22010    -0.00000
    16.74913     1.15757    -0.00000
    16.74913     1.15742    -0.00000
    16.74913     1.16209    -0.00000
    16.30240     1.19158     0.00000
    16.30240     1.19140     0.00000
    16.30240     1.19790     0.00000
    13.85438     1.26032    -0.00000
    13.85438     1.25680    -0.00000
    13.85438     1.26586     0.00000
    12.15109     1.41062    -0.00000
    12.15109     1.39788    -0.00000
    12.15109     1.41324    -0.00000
    11.52754     1.49325     0.00000
    11.52754     1.47419     0.00000
    11.52754     1.49325     0.00000
    12.15109     1.41062     0.00000
    12.15109     1.39788     0.00000
    12.15109     1.41324     0.00000
    13.85438     1.26032    -0.00000
    13.85438     1.25680    -0.00000
    13.85438     1.26586    -0.00000
    16.30240     1.19158     0.00000
    16.30240     1.19140     0.00000
    16.30240     1.19790     0.00000
    16.74913     1.15757     0.00000
    16.74913     1.15742     0.00000
    16.74913     1.16209     0.00000
    14.37737     1.21670     0.00000
    14.37737     1.21375     0.00000
    14.37737     1.22010     0.00000
    12.74417     1.34416     0.00000
    12.74417     1.33380    -0.00000
    12.74417     1.34416     0.00000
    12.15109     1.41324    -0.00000
    12.15109     1.39788     0.00000
    12.15109     1.41062     0.00000
    12.74417     1.34416     0.00000
    12.74417     1.33380     0.00000
    12.74417     1.34416     0.00000
    14.37737     1.21670    -0.00000
    14.37737     1.21375    -0.00000
    14.37737     1.22010    -0.00000
    16.74913     1.15757    -0.00000
    16.74913     1.15742    -0.00000
    16.74913     1.16209    -0.00000
    18.02298     1.09110     0.00000
    18.02298     1.09099     0.00000
    18.02298     1.09249     0.00000
    15.84309     1.13283    -0.00000
    15.84309     1.13090    -0.00000
    15.84309     1.13283     0.00000
    14.37737     1.22010    -0.00000
    14.37737     1.21375    -0.00000
    14.37737     1.21670    -0.00000
    13.85438     1.26586    -0.00000
    13.85438     1.25680    -0.00000
    13.85438     1.26032    -0.00000
    14.37737     1.22010    -0.00000
    14.37737     1.21375    -0.00000
    14.37737     1.21670     0.00000
    15.84309     1.13283    -0.00000
    15.84309     1.13090    -0.00000
    15.84309     1.13283    -0.00000
    18.02298     1.09110    -0.00000
    18.02298     1.09099    -0.00000
    18.02298     1.09249    -0.00000
    19.96628     1.05861    -0.00000
    19.96628     1.05853    -0.00000
    19.96628     1.05861     0.00000
    18.02298     1.09249     0.00000
    18.02298     1.09099     0.00000
    18.02298     1.09110     0.00000
    16.74913     1.16209    -0.00000
    16.74913     1.15742     0.00000
    16.74913     1.15757     0.00000
    16.30240     1.19790     0.00000
    16.30240     1.19140     0.00000
    16.30240     1.19158     0.00000
    16.74913     1.16209    -0.00000
    16.74913     1.15742    -0.00000
    16.74913     1.15757    -0.00000
    18.02298     1.09249    -0.00000
    18.02298     1.09099    -0.00000
    18.02298     1.09110    -0.00000
    19.96628     1.05861     0.00000
    19.96628     1.05853     0.00000
    19.96628     1.05861     0.00000
    18.02298     1.09249     0.00000
    18.02298     1.09384     0.00000
    18.02298     1.09249     0.00000
    15.84309     1.13466     0.00000
    15.84309     1.13459     0.00000
    15.84309     1.13283     0.00000
    14.37737     1.22295     0.00000
    14.37737     1.21939     0.00000
    14.37737     1.21670     0.00000
    13.85438     1.26930    -0.00000
    13.85438     1.26353    -0.00000
    13.85438     1.26032    -0.00000
    14.37737     1.22295     0.00000
    14.37737     1.21939    -0.00000
    14.37737     1.21670     0.00000
    15.84309     1.13466    -0.00000
    15.84309     1.13459     0.00000
    15.84309     1.13283     0.00000
    18.02298     1.09249     0.00000
    18.02298     1.09384     0.00000
    18.02298     1.09249     0.00000
    15.84309     1.13283     0.00000
    15.84309     1.13459     0.00000
    15.84309     1.13466     0.00000
    13.31086     1.18875     0.00000
    13.31086     1.18864     0.00000
    13.31086     1.18875     0.00000
    11.52754     1.31106    -0.00000
    11.52754     1.30549    -0.00000
    11.52754     1.30572     0.00000
    10.86827     1.37875     0.00000
    10.86827     1.36895    -0.00000
    10.86827     1.36926     0.00000
    11.52754     1.31106     0.00000
    11.52754     1.30549     0.00000
    11.52754     1.30572     0.00000
    13.31086     1.18875     0.00000
    13.31086     1.18864     0.00000
    13.31086     1.18875     0.00000
    15.84309     1.13283    -0.00000
    15.84309     1.13459    -0.00000
    15.84309     1.13466     0.00000
    14.37737     1.21670     0.00000
    14.37737     1.21939     0.00000
    14.37737     1.22295     0.00000
    11.52754     1.30572    -0.00000
    11.52754     1.30549     0.00000
    11.52754     1.31106     0.00000
     9.41220     1.51795    -0.00000
     9.41220     1.50625    -0.00000
     9.41220     1.51795     0.00000
     8.59212     1.64892     0.00000
     8.59212     1.62510     0.00000
     8.59212     1.64146     0.00000
     9.41220     1.51795     0.00000
     9.41220     1.50625     0.00000
     9.41220     1.51795     0.00000
    11.52754     1.30572     0.00000
    11.52754     1.30549     0.00000
    11.52754     1.31106     0.00000
    14.37737     1.21670    -0.00000
    14.37737     1.21939     0.00000
    14.37737     1.22295     0.00000
    13.85438     1.26032    -0.00000
    13.85438     1.26353    -0.00000
    13.85438     1.26930     0.00000
    10.86827     1.36926    -0.00000
    10.86827     1.36895    -0.00000
    10.86827     1.37875     0.00000
     8.59212     1.64146     0.00000
     8.59212     1.62510     0.00000
     8.59212     1.64892     0.00000
     7.68503     1.81913    -0.00000
     7.68503     1.78448    -0.00000
     7.68503     1.81913    -0.00000
     8.59212     1.64146     0.00000
     8.59212     1.62510     0.00000
     8.59212     1.64892     0.00000
    10.86827     1.36926     0.00000
    10.86827     1.36895     0.00000
    10.86827     1.37875     0.00000
    13.85438     1.26032    -0.00000
    13.85438     1.26353    -0.00000
    13.85438     1.26930    -0.00000
    14.37737     1.21670    -0.00000
    14.37737     1.21939    -0.00000
    14.37737     1.22295     0.00000
    11.52754     1.30572     0.00000
    11.52754     1.30549     0.00000
    11.52754     1.31106     0.00000
     9.41220     1.51795     0.00000
     9.41220     1.50625     0.00000
     9.41220     1.51795     0.00000
     8.59212     1.64892    -0.00000
     8.59212     1.62510     0.00000
     8.59212     1.64146     0.00000
     9.41220     1.51795     0.00000
     9.41220     1.50625     0.00000
     9.41220     1.51795    -0.00000
    11.52754     1.30572     0.00000
    11.52754     1.30549     0.00000
    11.52754     1.31106     0.00000
    14.37737     1.21670    -0.00000
    14.37737     1.21939    -0.00000
    14.37737     1.22295     0.00000
    15.84309     1.13283     0.00000
    15.84309     1.13459    -0.00000
    15.84309     1.13466     0.00000
    13.31086     1.18875     0.00000
    13.31086     1.18864     0.00000
    13.31086     1.18875     0.00000
    11.52754     1.31106    -0.00000
    11.52754     1.30549     0.00000
    11.52754     1.30572     0.00000
    10.86827     1.37875     0.00000
    10.86827     1.36895     0.00000
    10.86827     1.36926     0.00000
    11.52754     1.31106     0.00000
    11.52754     1.30549     0.00000
    11.52754     1.30572     0.00000
    13.31086     1.18875    -0.00000
    13.31086     1.18864    -0.00000
    13.31086     1.18875    -0.00000
    15.84309     1.13283    -0.00000
    15.84309     1.13459    -0.00000
    15.84309     1.13466    -0.00000
    18.02298     1.09249     0.00000
    18.02298     1.09384    -0.00000
    18.02298     1.09249     0.00000
    15.84309     1.13466     0.00000
    15.84309     1.13459     0.00000
    15.84309     1.13283     0.00000
    14.37737     1.22295     0.00000
    14.37737     1.21939     0.00000
    14.37737     1.21670     0.00000
    13.85438     1.26930    -0.00000
    13.85438     1.26353    -0.00000
    13.85438     1.26032    -0.00000
    14.37737     1.22295    -0.00000
    14.37737     1.21939    -0.00000
    14.37737     1.21670     0.00000
    15.84309     1.13466    -0.00000
    15.84309     1.13459    -0.00000
    15.84309     1.13283    -0.00000
    18.02298     1.09249    -0.00000
    18.02298     1.09384    -0.00000
    18.02298     1.09249    -0.00000
    16.74913     1.16209    -0.00000
    16.74913     1.16674    -0.00000
    16.74913     1.16209    -0.00000
    14.37737     1.22295     0.00000
    14.37737     1.22646     0.00000
    14.37737     1.22010     0.00000
    12.74417     1.35466     0.00000
    12.74417     1.35465     0.00000
    12.74417     1.34416     0.00000
    12.15109     1.42638     0.00000
    12.15109     1.42357     0.00000
    12.15109     1.41062     0.00000
    12.74417     1.35466    -0.00000
    12.74417     1.35465     0.00000
    12.74417     1.34416    -0.00000
    14.37737     1.22295    -0.00000
    14.37737     1.22646    -0.00000
    14.37737     1.22010    -0.00000
    16.74913     1.16209    -0.00000
    16.74913     1.16674    -0.00000
    16.74913     1.16209    -0.00000
    14.37737     1.22010     0.00000
    14.37737     1.22646    -0.00000
    14.37737     1.22295     0.00000
    11.52754     1.31106     0.00000
    11.52754     1.31650     0.00000
    11.52754     1.31106     0.00000
     9.41220     1.52953     0.00000
     9.41220     1.52929     0.00000
     9.41220     1.51795     0.00000
     8.59212     1.66584     0.00000
     8.59212     1.65737     0.00000
     8.59212     1.64146     0.00000
     9.41220     1.52953     0.00000
     9.41220     1.52929     0.00000
     9.41220     1.51795    -0.00000
    11.52754     1.31106     0.00000
    11.52754     1.31650     0.00000
    11.52754     1.31106    -0.00000
    14.37737     1.22010     0.00000
    14.37737     1.22646     0.00000
    14.37737     1.22295     0.00000
    12.74417     1.34416     0.00000
    12.74417     1.35465    -0.00000
    12.74417     1.35466    -0.00000
     9.41220     1.51795     0.00000
     9.41220     1.52929     0.00000
     9.41220     1.52953     0.00000
     6.65543     2.04673     0.00000
     6.65543     2.04476    -0.00000
     6.65543     2.04673    -0.00000
     5.43413     2.51828     0.00000
     5.43413     2.46248     0.00000
     5.43413     2.46818    -0.00000
     6.65543     2.04673     0.00000
     6.65543     2.04476     0.00000
     6.65543     2.04673    -0.00000
     9.41220     1.51795     0.00000
     9.41220     1.52929     0.00000
     9.41220     1.52953    -0.00000
    12.74417     1.34416     0.00000
    12.74417     1.35465    -0.00000
    12.74417     1.35466    -0.00000
    12.15109     1.41062    -0.00000
    12.15109     1.42357     0.00000
    12.15109     1.42638    -0.00000
     8.59212     1.64146     0.00000
     8.59212     1.65737     0.00000
     8.59212     1.66584     0.00000
     5.43413     2.46818     0.00000
     5.43413     2.46248     0.00000
     5.43413     2.51828     0.00000
     3.84251     3.49047     0.00000
     3.84251     3.30025     0.00000
     3.84251     3.49047     0.00000
     5.43413     2.46818    -0.00000
     5.43413     2.46248     0.00000
     5.43413     2.51828     0.00000
     8.59212     1.64146    -0.00000
     8.59212     1.65737    -0.00000
     8.59212     1.66584    -0.00000
    12.15109     1.41062     0.00000
    12.15109     1.42357    -0.00000
    12.15109     1.42638     0.00000
    12.74417     1.34416     0.00000
    12.74417     1.35465     0.00000
    12.74417     1.35466    -0.00000
     9.41220     1.51795     0.00000
     9.41220     1.52929     0.00000
     9.41220     1.52953     0.00000
     6.65543     2.04673     0.00000
     6.65543     2.04476     0.00000
     6.65543     2.04673    -0.00000
     5.43413     2.51828     0.00000
     5.43413     2.46248     0.00000
     5.43413     2.46818     0.00000
     6.65543     2.04673     0.00000
     6.65543     2.04476     0.00000
     6.65543     2.04673     0.00000
     9.41220     1.51795     0.00000
     9.41220     1.52929     0.00000
     9.41220     1.52953    -0.00000
    12.74417     1.34416    -0.00000
    12.74417     1.35465     0.00000
    12.74417     1.35466    -0.00000
    14.37737     1.22010     0.00000
    14.37737     1.22646    -0.00000
    14.37737     1.22295    -0.00000
    11.52754     1.31106     0.00000
    11.52754     1.31650     0.00000
    11.52754     1.31106     0.00000
     9.41220     1.52953     0.00000
     9.41220     1.52929     0.00000
     9.41220     1.51795    -0.00000
     8.59212     1.66584     0.00000
     8.59212     1.65737    -0.00000
     8.59212     1.64146    -0.00000
     9.41220     1.52953    -0.00000
     9.41220     1.52929     0.00000
     9.41220     1.51795    -0.00000
    11.52754     1.31106     0.00000
    11.52754     1.31650     0.00000
    11.52754     1.31106    -0.00000
    14.37737     1.22010     0.00000
    14.37737     1.22646     0.00000
    14.37737     1.22295     0.00000
    16.74913     1.16209    -0.00000
    16.74913     1.16674    -0.00000
    16.74913     1.16209    -0.00000
    14.37737     1.22295     0.00000
    14.37737     1.22646     0.00000
    14.37737     1.22010     0.00000
    12.74417     1.35466     0.00000
    12.74417     1.35465     0.00000
    12.74417     1.34416    -0.00000
    12.15109     1.42638     0.00000
    12.15109     1.42357     0.00000
    12.15109     1.41062     0.00000
    12.74417     1.35466    -0.00000
    12.74417     1.35465     0.00000
    12.74417     1.34416    -0.00000
    14.37737     1.22295    -0.00000
    14.37737     1.22646     0.00000
    14.37737     1.22010    -0.00000
    16.74913     1.16209    -0.00000
    16.74913     1.16674    -0.00000
    16.74913     1.16209    -0.00000
    16.30240     1.19790     0.00000
    16.30240     1.20450     0.00000
    16.30240     1.19790     0.00000
    13.85438     1.26930    -0.00000
    13.85438     1.27519    -0.00000
    13.85438     1.26586    -0.00000
    12.15109     1.42638     0.00000
    12.15109     1.42938     0.00000
    12.15109     1.41324     0.00000
    11.52754     1.51310     0.00000
    11.52754     1.51336     0.00000
    11.52754     1.49325     0.00000
    12.15109     1.42638    -0.00000
    12.15109     1.42938    -0.00000
    12.15109     1.41324    -0.00000
    13.85438     1.26930     0.00000
    13.85438     1.27519    -0.00000
    13.85438     1.26586     0.00000
    16.30240     1.19790    -0.00000
    16.30240     1.20450     0.00000
    16.30240     1.19790     0.00000
    13.85438     1.26586    -0.00000
    13.85438     1.27519    -0.00000
    13.85438     1.26930    -0.00000
    10.86827     1.37875     0.00000
    10.86827     1.38896     0.00000
    10.86827     1.37875     0.00000
     8.59212     1.66584     0.00000
     8.59212     1.67490     0.00000
     8.59212     1.64892    -0.00000
     7.68503     1.85618    -0.00000
     7.68503     1.85736    -0.00000
     7.68503     1.81913    -0.00000
     8.59212     1.66584     0.00000
     8.59212     1.67490     0.00000
     8.59212     1.64892     0.00000
    10.86827     1.37875    -0.00000
    10.86827     1.38896    -0.00000
    10.86827     1.37875     0.00000
    13.85438     1.26586    -0.00000
    13.85438     1.27519     0.00000
    13.85438     1.26930    -0.00000
    12.15109     1.41324     0.00000
    12.15109     1.42938     0.00000
    12.15109     1.42638     0.00000
     8.59212     1.64892    -0.00000
     8.59212     1.67490    -0.00000
     8.59212     1.66584     0.00000
     5.43413     2.51828    -0.00000
     5.43413     2.58089    -0.00000
     5.43413     2.51828    -0.00000
     3.84251     3.71183     0.00000
     3.84251     3.73569    -0.00000
     3.84251     3.49047     0.00000
     5.43413     2.51828    -0.00000
     5.43413     2.58089    -0.00000
     5.43413     2.51828     0.00000
     8.59212     1.64892     0.00000
     8.59212     1.67490    -0.00000
     8.59212     1.66584     0.00000
    12.15109     1.41324     0.00000
    12.15109     1.42938     0.00000
    12.15109     1.42638     0.00000
    11.52754     1.49325     0.00000
    11.52754     1.51336     0.00000
    11.52754     1.51310     0.00000
     7.68503     1.81913    -0.00000
     7.68503     1.85736    -0.00000
     7.68503     1.85618    -0.00000
     3.84251     3.49047     0.00000
     3.84251     3.73569     0.00000
     3.84251     3.71183     0.00000
     0.00000    14.09141     0.00000
     0.00000    15.39294    -0.00000
     0.00000    14.09141     0.00000
     3.84251     3.49047    -0.00000
     3.84251     3.73569    -0.00000
     3.84251     3.71183    -0.00000
     7.68503     1.81913     0.00000
     7.68503     1.85736     0.00000
     7.68503     1.85618     0.00000
    11.52754     1.49325    -0.00000
    11.52754     1.51336    -0.00000
    11.52754     1.51310    -0.00000
    12.15109     1.41324    -0.00000
    12.15109     1.42938    -0.00000
    12.15109     1.42638    -0.00000
     8.59212     1.64892    -0.00000
     8.59212     1.67490     0.00000
     8.59212     1.66584     0.00000
     5.43413     2.51828    -0.00000
     5.43413     2.58089     0.00000
     5.43413     2.51828     0.00000
     3.84251     3.71183    -0.00000
     3.84251     3.73569     0.00000
     3.84251     3.49047    -0.00000
     5.43413     2.51828     0.00000
     5.43413     2.58089     0.00000
     5.43413     2.51828     0.00000
     8.59212     1.64892     0.00000
     8.59212     1.67490     0.00000
     8.59212     1.66584     0.00000
    12.15109     1.41324    -0.00000
    12.15109     1.42938    -0.00000
    12.15109     1.42638    -0.00000
    13.85438     1.26586     0.00000
    13.85438     1.27519     0.00000
    13.85438     1.26930     0.00000
    10.86827     1.37875     0.00000
    10.86827     1.38896     0.00000
    10.86827     1.37875     0.00000
     8.59212     1.66584    -0.00000
     8.59212     1.67490    -0.00000
     8.59212     1.64892    -0.00000
     7.68503     1.85618     0.00000
     7.68503     1.85736     0.00000
     7.68503     1.81913     0.00000
     8.59212     1.66584     0.00000
     8.59212     1.67490    -0.00000
     8.59212     1.64892     0.00000
    10.86827     1.37875    -0.00000
    10.86827     1.38896    -0.00000
    10.86827     1.37875    -0.00000
    13.85438     1.26586     0.00000
    13.85438     1.27519     0.00000
    13.85438     1.26930     0.00000
    16.30240     1.19790    -0.00000
    16.30240     1.20450    -0.00000
    16.30240     1.19790     0.00000
    13.85438     1.26930    -0.00000
    13.85438     1.27519     0.00000
    13.85438     1.26586     0.00000
    12.15109     1.42638     0.00000
    12.15109     1.42938     0.00000
    12.15109     1.41324     0.00000
    11.52754     1.51310    -0.00000
    11.52754     1.51336    -0.00000
    11.52754     1.49325    -0.00000
    12.15109     1.42638    -0.00000
    12.15109     1.42938    -0.00000
    12.15109     1.41324    -0.00000
    13.85438     1.26930     0.00000
    13.85438     1.27519     0.00000
    13.85438     1.26586     0.00000
    16.30240     1.19790    -0.00000
    16.30240     1.20450    -0.00000
    16.30240     1.19790    -0.00000
    16.74913     1.16209    -0.00000
    16.74913     1.16674    -0.00000
    16.74913     1.16209     0.00000
    14.37737     1.22295    -0.00000
    14.37737     1.22646     0.00000
    14.37737     1.22010     0.00000
    12.74417     1.35466     0.00000
    12.74417     1.35465    -0.00000
    12.74417     1.34416     0.00000
    12.15109     1.42638    -0.00000
    12.15109     1.42357    -0.00000
    12.15109     1.41062    -0.00000
    12.74417     1.35466    -0.00000
    12.74417     1.35465    -0.00000
    12.74417     1.34416    -0.00000
    14.37737     1.22295    -0.00000
    14.37737     1.22646    -0.00000
    14.37737     1.22010    -0.00000
    16.74913     1.16209     0.00000
    16.74913     1.16674     0.00000
    16.74913     1.16209     0.00000
    14.37737     1.22010     0.00000
    14.37737     1.22646    -0.00000
    14.37737     1.22295     0.00000
    11.52754     1.31106     0.00000
    11.52754     1.31650    -0.00000
    11.52754     1.31106     0.00000
     9.41220     1.52953    -0.00000
     9.41220     1.52929    -0.00000
     9.41220     1.51795     0.00000
     8.59212     1.66584    -0.00000
     8.59212     1.65737     0.00000
     8.59212     1.64146     0.00000
     9.41220     1.52953    -0.00000
     9.41220     1.52929    -0.00000
     9.41220     1.51795    -0.00000
    11.52754     1.31106    -0.00000
    11.52754     1.31650    -0.00000
    11.52754     1.31106    -0.00000
    14.37737     1.22010     0.00000
    14.37737     1.22646     0.00000
    14.37737     1.22295     0.00000
    12.74417     1.34416    -0.00000
    12.74417     1.35465    -0.00000
    12.74417     1.35466    -0.00000
     9.41220     1.51795    -0.00000
     9.41220     1.52929    -0.00000
     9.41220     1.52953    -0.00000
     6.65543     2.04673     0.00000
     6.65543     2.04476    -0.00000
     6.65543     2.04673    -0.00000
     5.43413     2.51828    -0.00000
     5.43413     2.46248    -0.00000
     5.43413     2.46818    -0.00000
     6.65543     2.04673    -0.00000
     6.65543     2.04476    -0.00000
     6.65543     2.04673     0.00000
     9.41220     1.51795     0.00000
     9.41220     1.52929    -0.00000
     9.41220     1.52953     0.00000
    12.74417     1.34416    -0.00000
    12.74417     1.35465    -0.00000
    12.74417     1.35466     0.00000
    12.15109     1.41062    -0.00000
    12.15109     1.42357     0.00000
    12.15109     1.42638    -0.00000
     8.59212     1.64146    -0.00000
     8.59212     1.65737     0.00000
     8.59212     1.66584    -0.00000
     5.43413     2.46818     0.00000
     5.43413     2.46248    -0.00000
     5.43413     2.51828    -0.00000
     3.84251     3.49047    -0.00000
     3.84251     3.30025    -0.00000
     3.84251     3.49047     0.00000
     5.43413     2.46818    -0.00000
     5.43413     2.46248    -0.00000
     5.43413     2.51828     0.00000
     8.59212     1.64146    -0.00000
     8.59212     1.65737    -0.00000
     8.59212     1.66584    -0.00000
    12.15109     1.41062    -0.00000
    12.15109     1.42357    -0.00000
    12.15109     1.42638    -0.00000
    12.74417     1.34416     0.00000
    12.74417     1.35465     0.00000
    12.74417     1.35466    -0.00000
     9.41220     1.51795    -0.00000
     9.41220     1.52929    -0.00000
     9.41220     1.52953     0.00000
     6.65543     2.04673     0.00000
     6.65543     2.04476    -0.00000
     6.65543     2.04673    -0.00000
     5.43413     2.51828    -0.00000
     5.43413     2.46248    -0.00000
     5.43413     2.46818     0.00000
     6.65543     2.04673    -0.00000
     6.65543     2.04476     0.00000
     6.65543     2.04673    -0.00000
     9.41220     1.51795    -0.00000
     9.41220     1.52929    -0.00000
     9.41220     1.52953    -0.00000
    12.74417     1.34416    -0.00000
    12.74417     1.35465     0.00000
    12.74417     1.35466    -0.00000
    14.37737     1.22010    -0.00000
    14.37737     1.22646    -0.00000
    14.37737     1.22295    -0.00000
    11.52754     1.31106    -0.00000
    11.52754     1.31650    -0.00000
    11.52754     1.31106    -0.00000
     9.41220     1.52953    -0.00000
     9.41220     1.52929    -0.00000
     9.41220     1.51795    -0.00000
     8.59212     1.66584    -0.00000
     8.59212     1.65737    -0.00000
     8.59212     1.64146    -0.00000
     9.41220     1.52953    -0.00000
     9.41220     1.52929    -0.00000
     9.41220     1.51795    -0.00000
    11.52754     1.31106    -0.00000
    11.52754     1.31650    -0.00000
    11.52754     1.31106    -0.00000
    14.37737     1.22010    -0.00000
    14.37737     1.22646    -0.00000
    14.37737     1.22295    -0.00000
    16.74913     1.16209    -0.00000
    16.74913     1.16674     0.00000
    16.74913     1.16209     0.00000
    14.37737     1.22295    -0.00000
    14.37737     1.22646     0.00000
    14.37737     1.22010     0.00000
    12.74417     1.35466    -0.00000
    12.74417     1.35465     0.00000
    12.74417     1.34416     0.00000
    12.15109     1.42638     0.00000
    12.15109     1.42357    -0.00000
    12.15109     1.41062    -0.00000
    12.74417     1.35466    -0.00000
    12.74417     1.35465    -0.00000
    12.74417     1.34416    -0.00000
    14.37737     1.22295    -0.00000
    14.37737     1.22646    -0.00000
    14.37737     1.22010    -0.00000
    16.74913     1.16209    -0.00000
    16.74913     1.16674     0.00000
    16.74913     1.16209     0.00000
    18.02298     1.09249     0.00000
    18.02298     1.09384     0.00000
    18.02298     1.09249    -0.00000
    15.84309     1.13466    -0.00000
    15.84309     1.13459     0.00000
    15.84309     1.13283    -0.00000
    14.37737     1.22295     0.00000
    14.37737     1.21939     0.00000
    14.37737     1.21670    -0.00000
    13.85438     1.26930     0.00000
    13.85438     1.26353     0.00000
    13.85438     1.26032     0.00000
    14.37737     1.22295    -0.00000
    14.37737     1.21939    -0.00000
    14.37737     1.21670    -0.00000
    15.84309     1.13466    -0.00000
    15.84309     1.13459    -0.00000
    15.84309     1.13283    -0.00000
    18.02298     1.09249     0.00000
    18.02298     1.09384    -0.00000
    18.02298     1.09249    -0.00000
    15.84309     1.13283     0.00000
    15.84309     1.13459     0.00000
    15.84309     1.13466     0.00000
    13.31086     1.18875     0.00000
    13.31086     1.18864     0.00000
    13.31086     1.18875    -0.00000
    11.52754     1.31106    -0.00000
    11.52754     1.30549    -0.00000
    11.52754     1.30572    -0.00000
    10.86827     1.37875    -0.00000
    10.86827     1.36895    -0.00000
    10.86827     1.36926    -0.00000
    11.52754     1.31106     0.00000
    11.52754     1.30549    -0.00000
    11.52754     1.30572    -0.00000
    13.31086     1.18875    -0.00000
    13.31086     1.18864    -0.00000
    13.31086     1.18875    -0.00000
    15.84309     1.13283     0.00000
    15.84309     1.13459     0.00000
    15.84309     1.13466    -0.00000
    14.37737     1.21670     0.00000
    14.37737     1.21939     0.00000
    14.37737     1.22295    -0.00000
    11.52754     1.30572    -0.00000
    11.52754     1.30549    -0.00000
    11.52754     1.31106    -0.00000
     9.41220     1.51795     0.00000
     9.41220     1.50625    -0.00000
     9.41220     1.51795    -0.00000
     8.59212     1.64892    -0.00000
     8.59212     1.62510    -0.00000
     8.59212     1.64146    -0.00000
     9.41220     1.51795    -0.00000
     9.41220     1.50625    -0.00000
     9.41220     1.51795    -0.00000
    11.52754     1.30572    -0.00000
    11.52754     1.30549    -0.00000
    11.52754     1.31106    -0.00000
    14.37737     1.21670    -0.00000
    14.37737     1.21939     0.00000
    14.37737     1.22295    -0.00000
    13.85438     1.26032     0.00000
    13.85438     1.26353     0.00000
    13.85438     1.26930     0.00000
    10.86827     1.36926    -0.00000
    10.86827     1.36895    -0.00000
    10.86827     1.37875    -0.00000
     8.59212     1.64146    -0.00000
     8.59212     1.62510    -0.00000
     8.59212     1.64892    -0.00000
     7.68503     1.81913     0.00000
     7.68503     1.78448     0.00000
     7.68503     1.81913     0.00000
     8.59212     1.64146    -0.00000
     8.59212     1.62510    -0.00000
     8.59212     1.64892    -0.00000
    10.86827     1.36926     0.00000
    10.86827     1.36895     0.00000
    10.86827     1.37875    -0.00000
    13.85438     1.26032     0.00000
    13.85438     1.26353     0.00000
    13.85438     1.26930    -0.00000
    14.37737     1.21670    -0.00000
    14.37737     1.21939    -0.00000
    14.37737     1.22295    -0.00000
    11.52754     1.30572    -0.00000
    11.52754     1.30549    -0.00000
    11.52754     1.31106    -0.00000
     9.41220     1.51795    -0.00000
     9.41220     1.50625    -0.00000
     9.41220     1.51795    -0.00000
     8.59212     1.64892    -0.00000
     8.59212     1.62510    -0.00000
     8.59212     1.64146    -0.00000
     9.41220     1.51795     0.00000
     9.41220     1.50625     0.00000
     9.41220     1.51795    -0.00000
    11.52754     1.30572    -0.00000
    11.52754     1.30549    -0.00000
    11.52754     1.31106    -0.00000
    14.37737     1.21670    -0.00000
    14.37737     1.21939    -0.00000
    14.37737     1.22295    -0.00000
    15.84309     1.13283    -0.00000
    15.84309     1.13459    -0.00000
    15.84309     1.13466    -0.00000
    13.31086     1.18875    -0.00000
    13.31086     1.18864    -0.00000
    13.31086     1.18875    -0.00000
    11.52754     1.31106    -0.00000
    11.52754     1.30549    -0.00000
    11.52754     1.30572    -0.00000
    10.86827     1.37875    -0.00000
    10.86827     1.36895     0.00000
    10.86827     1.36926    -0.00000
    11.52754     1.31106    -0.00000
    11.52754     1.30549     0.00000
    11.52754     1.30572    -0.00000
    13.31086     1.18875    -0.00000
    13.31086     1.18864    -0.00000
    13.31086     1.18875    -0.00000
    15.84309     1.13283    -0.00000
    15.84309     1.13459    -0.00000
    15.84309     1.13466    -0.00000
    18.02298     1.09249    -0.00000
    18.02298     1.09384    -0.00000
    18.02298     1.09249    -0.00000
    15.84309     1.13466    -0.00000
    15.84309     1.13459     0.00000
    15.84309     1.13283    -0.00000
    14.37737     1.22295     0.00000
    14.37737     1.21939     0.00000
    14.37737     1.21670    -0.00000
    13.85438     1.26930    -0.00000
    13.85438     1.26353     0.00000
    13.85438     1.26032    -0.00000
    14.37737     1.22295    -0.00000
    14.37737     1.21939    -0.00000
    14.37737     1.21670    -0.00000
    15.84309     1.13466    -0.00000
    15.84309     1.13459    -0.00000
    15.84309     1.13283    -0.00000
    18.02298     1.09249    -0.00000
    18.02298     1.09384    -0.00000
    18.02298     1.09249    -0.00000
    19.96628     1.05861    -0.00000
    19.96628     1.05853    -0.00000
    19.96628     1.05861    -0.00000
    18.02298     1.09249     0.00000
    18.02298     1.09099     0.00000
    18.02298     1.09110     0.00000
    16.74913     1.16209     0.00000
    16.74913     1.15742     0.00000
    16.74913     1.15757     0.00000
    16.30240     1.19790    -0.00000
    16.30240     1.19140    -0.00000
    16.30240     1.19158    -0.00000
    16.74913     1.16209    -0.00000
    16.74913     1.15742    -0.00000
    16.74913     1.15757     0.00000
    18.02298     1.09249    -0.00000
    18.02298     1.09099    -0.00000
    18.02298     1.09110     0.00000
    19.96628     1.05861     0.00000
    19.96628     1.05853     0.00000
    19.96628     1.05861     0.00000
    18.02298     1.09110     0.00000
    18.02298     1.09099     0.00000
    18.02298     1.09249     0.00000
    15.84309     1.13283     0.00000
    15.84309     1.13090     0.00000
    15.84309     1.13283     0.00000
    14.37737     1.22010    -0.00000
    14.37737     1.21375     0.00000
    14.37737     1.21670     0.00000
    13.85438     1.26586     0.00000
    13.85438     1.25680     0.00000
    13.85438     1.26032     0.00000
    14.37737     1.22010     0.00000
    14.37737     1.21375     0.00000
    14.37737     1.21670     0.00000
    15.84309     1.13283     0.00000
    15.84309     1.13090     0.00000
    15.84309     1.13283     0.00000
    18.02298     1.09110    -0.00000
    18.02298     1.09099    -0.00000
    18.02298     1.09249     0.00000
    16.74913     1.15757     0.00000
    16.74913     1.15742     0.00000
    16.74913     1.16209     0.00000
    14.37737     1.21670    -0.00000
    14.37737     1.21375     0.00000
    14.37737     1.22010     0.00000
    12.74417     1.34416    -0.00000
    12.74417     1.33380    -0.00000
    12.74417     1.34416     0.00000
    12.15109     1.41324    -0.00000
    12.15109     1.39788    -0.00000
    12.15109     1.41062    -0.00000
    12.74417     1.34416     0.00000
    12.74417     1.33380     0.00000
    12.74417     1.34416    -0.00000
    14.37737     1.21670     0.00000
    14.37737     1.21375    -0.00000
    14.37737     1.22010     0.00000
    16.74913     1.15757    -0.00000
    16.74913     1.15742    -0.00000
    16.74913     1.16209    -0.00000
    16.30240     1.19158    -0.00000
    16.30240     1.19140    -0.00000
    16.30240     1.19790    -0.00000
    13.85438     1.26032     0.00000
    13.85438     1.25680     0.00000
    13.85438     1.26586     0.00000
    12.15109     1.41062    -0.00000
    12.15109     1.39788    -0.00000
    12.15109     1.41324     0.00000
    11.52754     1.49325    -0.00000
    11.52754     1.47419    -0.00000
    11.52754     1.49325    -0.00000
    12.15109     1.41062     0.00000
    12.15109     1.39788     0.00000
    12.15109     1.41324     0.00000
    13.85438     1.26032    -0.00000
    13.85438     1.25680     0.00000
    13.85438     1.26586     0.00000
    16.30240     1.19158    -0.00000
    16.30240     1.19140    -0.00000
    16.30240     1.19790    -0.00000
    16.74913     1.15757     0.00000
    16.74913     1.15742     0.00000
    16.74913     1.16209     0.00000
    14.37737     1.21670     0.00000
    14.37737     1.21375     0.00000
    14.37737     1.22010     0.00000
    12.74417     1.34416    -0.00000
    12.74417     1.33380     0.00000
    12.74417     1.34416     0.00000
    12.15109     1.41324     0.00000
    12.15109     1.39788     0.00000
    12.15109     1.41062     0.00000
    12.74417     1.34416     0.00000
    12.74417     1.33380     0.00000
    12.74417     1.34416     0.00000
    14.37737     1.21670     0.00000
    14.37737     1.21375     0.00000
    14.37737     1.22010     0.00000
    16.74913     1.15757    -0.00000
    16.74913     1.15742    -0.00000
    16.74913     1.16209    -0.00000
    18.02298     1.09110     0.00000
    18.02298     1.09099     0.00000
    18.02298     1.09249     0.00000
    15.84309     1.13283     0.00000
    15.84309     1.13090     0.00000
    15.84309     1.13283     0.00000
    14.37737     1.22010    -0.00000
    14.37737     1.21375    -0.00000
    14.37737     1.21670     0.00000
    13.85438     1.26586    -0.00000
    13.85438     1.25680    -0.00000
    13.85438     1.26032    -0.00000
    14.37737     1.22010     0.00000
    14.37737     1.21375     0.00000
    14.37737     1.21670     0.00000
    15.84309     1.13283     0.00000
    15.84309     1.13090    -0.00000
    15.84309     1.13283     0.00000
    18.02298     1.09110    -0.00000
    18.02298     1.09099    -0.00000
    18.02298     1.09249    -0.00000
    19.96628     1.05861     0.00000
    19.96628     1.05853     0.00000
    19.96628     1.05861     0.00000
    18.02298     1.09249    -0.00000
    18.02298     1.09099     0.00000
    18.02298     1.09110     0.00000
    16.74913     1.16209    -0.00000
    16.74913     1.15742     0.00000
    16.74913     1.15757     0.00000
    16.30240     1.19790    -0.00000
    16.30240     1.19140    -0.00000
    16.30240     1.19158    -0.00000
    16.74913     1.16209    -0.00000
    16.74913     1.15742    -0.00000
    16.74913     1.15757    -0.00000
    18.02298     1.09249    -0.00000
    18.02298     1.09099    -0.00000
    18.02298     1.09110    -0.00000
    19.96628     1.05861     0.00000
    19.96628     1.05853     0.00000
    19.96628     1.05861     0.00000
